File: 04_XRD/Richard_sno_dropcast_XRD.xy
20.0049 3587.0
20.0542 3580.0
20.1034 3546.0
20.1526 3507.0
20.2019 3454.0
20.2511 3504.0
20.3004 3387.0
20.3496 3591.0
20.3988 3489.0
20.4481 3436.0
20.4973 3404.0
20.5465 3549.0
20.5958 3387.0
20.645 3475.0
20.6943 3389.0
20.7435 3490.0
20.7927 3434.0
20.842 3462.0
20.8912 3445.0
20.9405 3308.0
20.9897 3457.0
21.0389 3352.0
21.0882 3394.0
21.1374 3423.0
21.1866 3412.0
21.2359 3371.0
21.2851 3431.0
21.3344 3334.0
21.3836 3426.0
21.4328 3336.0
21.4821 3353.0
21.5313 3420.0
21.5806 3443.0
21.6298 3316.0
21.679 3360.0
21.7283 3316.0
21.7775 3285.0
21.8268 3404.0
21.876 3319.0
21.9252 3206.0
21.9745 3280.0
22.0237 3329.0
22.0729 3327.0
22.1222 3348.0
22.1714 3217.0
22.2207 3251.0
22.2699 3431.0
22.3191 3327.0
22.3684 3239.0
22.4176 3314.0
22.4669 3236.0
22.5161 3230.0
22.5653 3152.0
22.6146 3261.0
22.6638 3214.0
22.713 3209.0
22.7623 3273.0
22.8115 3309.0
22.8608 3275.0
22.91 3276.0
22.9592 3209.0
23.0085 3190.0
23.0577 3120.0
23.107 3177.0
23.1562 3070.0
23.2054 3118.0
23.2547 3051.0
23.3039 3206.0
23.3531 3145.0
23.4024 2967.0
23.4516 3115.0
23.5009 3033.0
23.5501 3019.0
23.5993 3121.0
23.6486 3020.0
23.6978 2970.0
23.7471 3054.0
23.7963 2983.0
23.8455 2938.0
23.8948 3046.0
23.944 2999.0
23.9932 2996.0
24.0425 3001.0
24.0917 3033.0
24.141 2994.0
24.1902 2921.0
24.2394 2930.0
24.2887 2999.0
24.3379 3077.0
24.3872 3031.0
24.4364 3063.0
24.4856 2941.0
24.5349 3006.0
24.5841 3056.0
24.6333 2955.0
24.6826 3004.0
24.7318 3019.0
24.7811 3026.0
24.8303 3026.0
24.8795 2890.0
24.9288 3023.0
24.978 2981.0
25.0273 3031.0
25.0765 2941.0
25.1257 3005.0
25.175 2986.0
25.2242 2950.0
25.2734 3112.0
25.3227 3040.0
25.3719 2985.0
25.4212 2976.0
25.4704 3127.0
25.5196 3053.0
25.5689 3009.0
25.6181 3086.0
25.6674 3116.0
25.7166 3077.0
25.7658 3147.0
25.8151 3213.0
25.8643 3190.0
25.9136 3142.0
25.9628 3209.0
26.012 3181.0
26.0613 3303.0
26.1105 3291.0
26.1597 3357.0
26.209 3371.0
26.2582 3146.0
26.3075 3373.0
26.3567 3341.0
26.4059 3390.0
26.4552 3326.0
26.5044 3270.0
26.5537 3211.0
26.6029 3295.0
26.6521 3297.0
26.7014 3260.0
26.7506 3130.0
26.7998 3208.0
26.8491 3159.0
26.8983 3044.0
26.9476 2974.0
26.9968 2956.0
27.046 2985.0
27.0953 2935.0
27.1445 2905.0
27.1938 2892.0
27.243 2907.0
27.2922 2834.0
27.3415 2824.0
27.3907 2817.0
27.4399 2764.0
27.4892 2778.0
27.5384 2660.0
27.5877 2812.0
27.6369 2636.0
27.6861 2753.0
27.7354 2671.0
27.7846 2719.0
27.8339 2688.0
27.8831 2652.0
27.9323 2633.0
27.9816 2606.0
28.0308 2584.0
28.08 2455.0
28.1293 2557.0
28.1785 2643.0
28.2278 2649.0
28.277 2536.0
28.3262 2507.0
28.3755 2487.0
28.4247 2480.0
28.474 2547.0
28.5232 2450.0
28.5724 2543.0
28.6217 2558.0
28.6709 2524.0
28.7201 2628.0
28.7694 2566.0
28.8186 2603.0
28.8679 2627.0
28.9171 2639.0
28.9663 2577.0
29.0156 2608.0
29.0648 2608.0
29.1141 2598.0
29.1633 2618.0
29.2125 2653.0
29.2618 2739.0
29.311 2774.0
29.3603 2908.0
29.4095 3098.0
29.4587 3239.0
29.508 3663.0
29.5572 4328.0
29.6064 5346.0
29.6557 6762.0
29.7049 9249.0
29.7542 12775.0
29.8034 15395.0
29.8526 13333.0
29.9019 9901.0
29.9511 6514.0
30.0004 4610.0
30.0496 3533.0
30.0988 3027.0
30.1481 2960.0
30.1973 2641.0
30.2465 2480.0
30.2958 2509.0
30.345 2410.0
30.3943 2390.0
30.4435 2354.0
30.4927 2293.0
30.542 2359.0
30.5912 2304.0
30.6405 2196.0
30.6897 2346.0
30.7389 2249.0
30.7882 2333.0
30.8374 2235.0
30.8866 2270.0
30.9359 2282.0
30.9851 2231.0
31.0344 2261.0
31.0836 2285.0
31.1328 2257.0
31.1821 2276.0
31.2313 2227.0
31.2806 2270.0
31.3298 2327.0
31.379 2232.0
31.4283 2272.0
31.4775 2222.0
31.5267 2108.0
31.576 2206.0
31.6252 2181.0
31.6745 2101.0
31.7237 2196.0
31.7729 2198.0
31.8222 2134.0
31.8714 2235.0
31.9207 2310.0
31.9699 2219.0
32.0191 2264.0
32.0684 2129.0
32.1176 2198.0
32.1668 2253.0
32.2161 2128.0
32.2653 2135.0
32.3146 2176.0
32.3638 2221.0
32.413 2090.0
32.4623 2253.0
32.5115 2174.0
32.5608 2166.0
32.61 2230.0
32.6592 2201.0
32.7085 2248.0
32.7577 2243.0
32.8069 2197.0
32.8562 2276.0
32.9054 2275.0
32.9547 2266.0
33.0039 2446.0
33.0531 2443.0
33.1024 2720.0
33.1516 3435.0
33.2009 4845.0
33.2501 6908.0
33.2993 5809.0
33.3486 4990.0
33.3978 3398.0
33.4471 2867.0
33.4963 2483.0
33.5455 2446.0
33.5948 2432.0
33.644 2347.0
33.6932 2424.0
33.7425 2499.0
33.7917 2386.0
33.841 2549.0
33.8902 2367.0
33.9394 2380.0
33.9887 2399.0
34.0379 2348.0
34.0872 2295.0
34.1364 2420.0
34.1856 2309.0
34.2349 2306.0
34.2841 2259.0
34.3333 2219.0
34.3826 2212.0
34.4318 2236.0
34.4811 2262.0
34.5303 2129.0
34.5795 2130.0
34.6288 2048.0
34.678 2059.0
34.7273 2056.0
34.7765 2111.0
34.8257 2021.0
34.875 1992.0
34.9242 2005.0
34.9734 1964.0
35.0227 1940.0
35.0719 2013.0
35.1212 1937.0
35.1704 1987.0
35.2196 1941.0
35.2689 1956.0
35.3181 1985.0
35.3674 1942.0
35.4166 1895.0
35.4658 1911.0
35.5151 1963.0
35.5643 1854.0
35.6135 1879.0
35.6628 1851.0
35.712 1801.0
35.7613 1846.0
35.8105 1846.0
35.8597 1775.0
35.909 1855.0
35.9582 1862.0
36.0075 1873.0
36.0567 1857.0
36.1059 1823.0
36.1552 1817.0
36.2044 1767.0
36.2536 1875.0
36.3029 1884.0
36.3521 1867.0
36.4014 1772.0
36.4506 1746.0
36.4998 1818.0
36.5491 1831.0
36.5983 1856.0
36.6476 1861.0
36.6968 1868.0
36.746 1932.0
36.7953 2106.0
36.8445 2191.0
36.8937 2186.0
36.943 2523.0
36.9922 2831.0
37.0415 3058.0
37.0907 3014.0
37.1399 2749.0
37.1892 2531.0
37.2384 2125.0
37.2877 1980.0
37.3369 1874.0
37.3861 1770.0
37.4354 1757.0
37.4846 1821.0
37.5339 1744.0
37.5831 1805.0
37.6323 1743.0
37.6816 1777.0
37.7308 1715.0
37.78 1698.0
37.8293 1772.0
37.8785 1768.0
37.9278 1673.0
37.977 1723.0
38.0262 1813.0
38.0755 1661.0
38.1247 1683.0
38.174 1668.0
38.2232 1704.0
38.2724 1653.0
38.3217 1702.0
38.3709 1608.0
38.4201 1672.0
38.4694 1636.0
38.5186 1617.0
38.5679 1683.0
38.6171 1631.0
38.6663 1633.0
38.7156 1542.0
38.7648 1535.0
38.8141 1525.0
38.8633 1623.0
38.9125 1506.0
38.9618 1601.0
39.011 1545.0
39.0602 1544.0
39.1095 1560.0
39.1587 1510.0
39.208 1505.0
39.2572 1520.0
39.3064 1516.0
39.3557 1524.0
39.4049 1617.0
39.4542 1504.0
39.5034 1467.0
39.5526 1550.0
39.6019 1538.0
39.6511 1510.0
39.7003 1523.0
39.7496 1431.0
39.7988 1417.0
39.8481 1416.0
39.8973 1429.0
39.9465 1395.0
39.9958 1446.0
40.045 1446.0
40.0943 1489.0
40.1435 1448.0
40.1927 1351.0
40.242 1385.0
40.2912 1363.0
40.3404 1426.0
40.3897 1436.0
40.4389 1437.0
40.4882 1400.0
40.5374 1424.0
40.5866 1404.0
40.6359 1416.0
40.6851 1348.0
40.7344 1392.0
40.7836 1344.0
40.8328 1413.0
40.8821 1360.0
40.9313 1428.0
40.9806 1366.0
41.0298 1413.0
41.079 1387.0
41.1283 1371.0
41.1775 1374.0
41.2267 1316.0
41.276 1343.0
41.3252 1340.0
41.3745 1377.0
41.4237 1391.0
41.4729 1403.0
41.5222 1357.0
41.5714 1276.0
41.6207 1334.0
41.6699 1369.0
41.7191 1351.0
41.7684 1295.0
41.8176 1338.0
41.8668 1342.0
41.9161 1366.0
41.9653 1299.0
42.0146 1338.0
42.0638 1375.0
42.113 1320.0
42.1623 1304.0
42.2115 1266.0
42.2608 1346.0
42.31 1301.0
42.3592 1319.0
42.4085 1376.0
42.4577 1275.0
42.5069 1325.0
42.5562 1380.0
42.6054 1352.0
42.6547 1291.0
42.7039 1348.0
42.7531 1271.0
42.8024 1297.0
42.8516 1295.0
42.9009 1368.0
42.9501 1336.0
42.9993 1362.0
43.0486 1314.0
43.0978 1375.0
43.147 1264.0
43.1963 1327.0
43.2455 1231.0
43.2948 1291.0
43.344 1261.0
43.3932 1314.0
43.4425 1280.0
43.4917 1255.0
43.541 1349.0
43.5902 1247.0
43.6394 1329.0
43.6887 1293.0
43.7379 1255.0
43.7871 1207.0
43.8364 1221.0
43.8856 1274.0
43.9349 1268.0
43.9841 1243.0
44.0333 1310.0
44.0826 1230.0
44.1318 1286.0
44.1811 1337.0
44.2303 1289.0
44.2795 1340.0
44.3288 1313.0
44.378 1252.0
44.4272 1268.0
44.4765 1233.0
44.5257 1193.0
44.575 1245.0
44.6242 1148.0
44.6734 1288.0
44.7227 1170.0
44.7719 1200.0
44.8212 1229.0
44.8704 1264.0
44.9196 1225.0
44.9689 1248.0
45.0181 1206.0
45.0674 1269.0
45.1166 1230.0
45.1658 1232.0
45.2151 1177.0
45.2643 1181.0
45.3135 1256.0
45.3628 1216.0
45.412 1182.0
45.4613 1203.0
45.5105 1281.0
45.5597 1125.0
45.609 1269.0
45.6582 1225.0
45.7075 1166.0
45.7567 1193.0
45.8059 1196.0
45.8552 1175.0
45.9044 1203.0
45.9536 1131.0
46.0029 1216.0
46.0521 1160.0
46.1014 1179.0
46.1506 1235.0
46.1998 1200.0
46.2491 1166.0
46.2983 1185.0
46.3476 1138.0
46.3968 1197.0
46.446 1123.0
46.4953 1225.0
46.5445 1140.0
46.5937 1122.0
46.643 1163.0
46.6922 1154.0
46.7415 1238.0
46.7907 1188.0
46.8399 1194.0
46.8892 1212.0
46.9384 1186.0
46.9877 1260.0
47.0369 1164.0
47.0861 1160.0
47.1354 1205.0
47.1846 1180.0
47.2338 1216.0
47.2831 1205.0
47.3323 1251.0
47.3816 1200.0
47.4308 1364.0
47.48 1287.0
47.5293 1384.0
47.5785 1501.0
47.6278 1638.0
47.677 1856.0
47.7262 2026.0
47.7755 2401.0
47.8247 2318.0
47.8739 2136.0
47.9232 1926.0
47.9724 1788.0
48.0217 1564.0
48.0709 1408.0
48.1201 1374.0
48.1694 1288.0
48.2186 1216.0
48.2679 1217.0
48.3171 1219.0
48.3663 1180.0
48.4156 1275.0
48.4648 1173.0
48.5141 1188.0
48.5633 1214.0
48.6125 1204.0
48.6618 1122.0
48.711 1162.0
48.7602 1219.0
48.8095 1153.0
48.8587 1225.0
48.908 1198.0
48.9572 1195.0
49.0064 1142.0
49.0557 1166.0
49.1049 1134.0
49.1542 1173.0
49.2034 1159.0
49.2526 1225.0
49.3019 1188.0
49.3511 1131.0
49.4003 1192.0
49.4496 1183.0
49.4988 1157.0
49.5481 1180.0
49.5973 1223.0
49.6465 1203.0
49.6958 1143.0
49.745 1248.0
49.7943 1225.0
49.8435 1229.0
49.8927 1216.0
49.942 1303.0
49.9912 1234.0
50.0404 1276.0
50.0897 1280.0
50.1389 1307.0
50.1882 1355.0
50.2374 1392.0
50.2866 1445.0
50.3359 1555.0
50.3851 1782.0
50.4344 1870.0
50.4836 2024.0
50.5328 2506.0
50.5821 2934.0
50.6313 3584.0
50.6805 3959.0
50.7298 3567.0
50.779 3186.0
50.8283 2712.0
50.8775 2160.0
50.9267 1809.0
50.976 1605.0
51.0252 1592.0
51.0745 1521.0
51.1237 1478.0
51.1729 1483.0
51.2222 1580.0
51.2714 1497.0
51.3206 1520.0
51.3699 1493.0
51.4191 1451.0
51.4684 1547.0
51.5176 1589.0
51.5668 1550.0
51.6161 1570.0
51.6653 1541.0
51.7146 1539.0
51.7638 1427.0
51.813 1513.0
51.8623 1556.0
51.9115 1538.0
51.9607 1497.0
52.01 1477.0
52.0592 1417.0
52.1085 1434.0
52.1577 1407.0
52.2069 1297.0
52.2562 1364.0
52.3054 1371.0
52.3547 1377.0
52.4039 1375.0
52.4531 1296.0
52.5024 1298.0
52.5516 1276.0
52.6009 1259.0
52.6501 1250.0
52.6993 1217.0
52.7486 1257.0
52.7978 1231.0
52.847 1207.0
52.8963 1227.0
52.9455 1243.0
52.9948 1189.0
53.044 1258.0
53.0932 1224.0
53.1425 1189.0
53.1917 1162.0
53.241 1197.0
53.2902 1169.0
53.3394 1164.0
53.3887 1144.0
53.4379 1134.0
53.4871 1171.0
53.5364 1179.0
53.5856 1246.0
53.6349 1114.0
53.6841 1184.0
53.7333 1109.0
53.7826 1199.0
53.8318 1173.0
53.8811 1158.0
53.9303 1137.0
53.9795 1085.0
54.0288 1200.0
54.078 1186.0
54.1272 1113.0
54.1765 1165.0
54.2257 1124.0
54.275 1118.0
54.3242 1133.0
54.3734 1100.0
54.4227 1112.0
54.4719 1183.0
54.5212 1095.0
54.5704 1121.0
54.6196 1157.0
54.6689 1099.0
54.7181 1094.0
54.7673 1034.0
54.8166 1088.0
54.8658 1071.0
54.9151 1054.0
54.9643 1118.0
55.0135 1033.0
55.0628 1025.0
55.112 1119.0
55.1613 1018.0
55.2105 1062.0
55.2597 1036.0
55.309 1068.0
55.3582 1039.0
55.4074 1109.0
55.4567 1017.0
55.5059 1074.0
55.5552 944.0
55.6044 987.0
55.6536 1064.0
55.7029 958.0
55.7521 1007.0
55.8014 1000.0
55.8506 1014.0
55.8998 993.0
55.9491 1078.0
55.9983 974.0
56.0475 1031.0
56.0968 961.0
56.146 1008.0
56.1953 992.0
56.2445 987.0
56.2937 1028.0
56.343 988.0
56.3922 998.0
56.4415 997.0
56.4907 1017.0
56.5399 1022.0
56.5892 988.0
56.6384 1001.0
56.6877 946.0
56.7369 990.0
56.7861 1034.0
56.8354 1021.0
56.8846 1103.0
56.9338 1138.0
56.9831 1137.0
57.0323 1153.0
57.0816 1345.0
57.1308 1342.0
57.18 1607.0
57.2293 1885.0
57.2785 2301.0
57.3278 2881.0
57.377 3161.0
57.4262 2867.0
57.4755 2650.0
57.5247 2424.0
57.5739 2071.0
57.6232 1710.0
57.6724 1405.0
57.7217 1197.0
57.7709 1210.0
57.8201 1216.0
57.8694 1067.0
57.9186 1013.0
57.9679 978.0
58.0171 1002.0
58.0663 1006.0
58.1156 949.0
58.1648 980.0
58.214 979.0
58.2633 978.0
58.3125 932.0
58.3618 939.0
58.411 911.0
58.4602 954.0
58.5095 988.0
58.5587 1004.0
58.608 961.0
58.6572 989.0
58.7064 914.0
58.7557 923.0
58.8049 952.0
58.8541 954.0
58.9034 944.0
58.9526 894.0
59.0019 977.0
59.0511 874.0
59.1003 997.0
59.1496 845.0
59.1988 914.0
59.2481 948.0
59.2973 948.0
59.3465 914.0
59.3958 926.0
59.445 898.0
59.4942 928.0
59.5435 917.0
59.5927 918.0
59.642 916.0
59.6912 921.0
59.7404 905.0
59.7897 945.0
59.8389 939.0
59.8882 872.0
59.9374 876.0
59.9866 879.0
60.0359 902.0
60.0851 903.0
60.1344 933.0
60.1836 866.0
60.2328 957.0
60.2821 962.0
60.3313 931.0
60.3805 913.0
60.4298 986.0
60.479 962.0
60.5283 940.0
60.5775 873.0
60.6267 899.0
60.676 975.0
60.7252 890.0
60.7745 950.0
60.8237 930.0
60.8729 935.0
60.9222 962.0
60.9714 989.0
61.0206 942.0
61.0699 965.0
61.1191 953.0
61.1684 977.0
61.2176 1008.0
61.2668 995.0
61.3161 970.0
61.3653 1017.0
61.4146 962.0
61.4638 1003.0
61.513 1092.0
61.5623 1051.0
61.6115 1077.0
61.6607 1091.0
61.71 1113.0
61.7592 1194.0
61.8085 1239.0
61.8577 1337.0
61.9069 1410.0
61.9562 1569.0
62.0054 1637.0
62.0547 1531.0
62.1039 1463.0
62.1531 1534.0
62.2024 1576.0
62.2516 1527.0
62.3008 1490.0
62.3501 1553.0
62.3993 1700.0
62.4486 1816.0
62.4978 1735.0
62.547 1635.0
62.5963 1483.0
62.6455 1442.0
62.6948 1261.0
62.744 1156.0
62.7932 1065.0
62.8425 955.0
62.8917 989.0
62.9409 976.0
62.9902 897.0
63.0394 949.0
63.0887 943.0
63.1379 958.0
63.1871 898.0
63.2364 909.0
63.2856 840.0
63.3349 983.0
63.3841 902.0
63.4333 876.0
63.4826 895.0
63.5318 867.0
63.581 870.0
63.6303 878.0
63.6795 876.0
63.7288 899.0
63.778 875.0
63.8272 877.0
63.8765 871.0
63.9257 864.0
63.975 826.0
64.0242 896.0
64.0734 874.0
64.1227 883.0
64.1719 928.0
64.2212 909.0
64.2704 890.0
64.3196 898.0
64.3689 969.0
64.4181 899.0
64.4673 921.0
64.5166 923.0
64.5658 853.0
64.6151 920.0
64.6643 924.0
64.7135 907.0
64.7628 921.0
64.812 939.0
64.8613 891.0
64.9105 923.0
64.9597 917.0
65.009 921.0
65.0582 906.0
65.1074 820.0
65.1567 962.0
65.2059 912.0
65.2552 906.0
65.3044 861.0
65.3536 902.0
65.4029 888.0
65.4521 902.0
65.5014 891.0
65.5506 950.0
65.5998 943.0
65.6491 923.0
65.6983 876.0
65.7475 855.0
65.7968 862.0
65.846 906.0
65.8953 853.0
65.9445 962.0
65.9937 859.0
66.043 863.0
66.0922 908.0
66.1415 875.0
66.1907 870.0
66.2399 843.0
66.2892 833.0
66.3384 826.0
66.3876 887.0
66.4369 800.0
66.4861 800.0
66.5354 841.0
66.5846 804.0
66.6338 780.0
66.6831 823.0
66.7323 824.0
66.7816 848.0
66.8308 788.0
66.88 747.0
66.9293 755.0
66.9785 777.0
67.0277 699.0
67.077 816.0
67.1262 786.0
67.1755 796.0
67.2247 819.0
67.2739 802.0
67.3232 796.0
67.3724 795.0
67.4217 854.0
67.4709 822.0
67.5201 818.0
67.5694 797.0
67.6186 824.0
67.6679 889.0
67.7171 813.0
67.7663 783.0
67.8156 791.0
67.8648 729.0
67.914 780.0
67.9633 756.0
68.0125 743.0
68.0618 757.0
68.111 711.0
68.1602 747.0
68.2095 729.0
68.2587 662.0
68.308 733.0
68.3572 745.0
68.4064 717.0
68.4557 740.0
68.5049 742.0
68.5541 753.0
68.6034 724.0
68.6526 742.0
68.7019 729.0
68.7511 733.0
68.8003 748.0
68.8496 724.0
68.8988 737.0
68.9481 719.0
68.9973 719.0
69.0465 732.0
69.0958 731.0
69.145 759.0
69.1942 649.0
69.2435 692.0
69.2927 695.0
69.342 745.0
69.3912 745.0
69.4404 778.0
69.4897 744.0
69.5389 793.0
69.5882 787.0
69.6374 699.0
69.6866 740.0
69.7359 775.0
69.7851 812.0
69.8343 913.0
69.8836 1046.0
69.9328 1041.0
69.9821 1000.0
70.0313 849.0
70.0805 876.0
70.1298 933.0
70.179 858.0
70.2283 783.0
70.2775 764.0
70.3267 743.0
70.376 731.0
70.4252 683.0
70.4744 717.0
70.5237 723.0
70.5729 712.0
70.6222 723.0
70.6714 751.0
70.7206 705.0
70.7699 670.0
70.8191 712.0
70.8684 656.0
70.9176 715.0
70.9668 693.0
71.0161 715.0
71.0653 716.0
71.1145 676.0
71.1638 737.0
71.213 759.0
71.2623 668.0
71.3115 717.0
71.3607 698.0
71.41 725.0
71.4592 700.0
71.5085 700.0
71.5577 745.0
71.6069 698.0
71.6562 744.0
71.7054 641.0
71.7547 704.0
71.8039 686.0
71.8531 651.0
71.9024 715.0
71.9516 686.0
72.0008 693.0
72.0501 647.0
72.0993 722.0
72.1486 675.0
72.1978 652.0
72.247 653.0
72.2963 647.0
72.3455 713.0
72.3948 654.0
72.444 726.0
72.4932 653.0
72.5425 668.0
72.5917 657.0
72.6409 652.0
72.6902 682.0
72.7394 664.0
72.7887 696.0
72.8379 687.0
72.8871 665.0
72.9364 677.0
72.9856 669.0
73.0349 675.0
73.0841 651.0
73.1333 663.0
73.1826 679.0
73.2318 644.0
73.281 647.0
73.3303 646.0
73.3795 680.0
73.4288 691.0
73.478 658.0
73.5272 629.0
73.5765 672.0
73.6257 662.0
73.675 624.0
73.7242 621.0
73.7734 623.0
73.8227 590.0
73.8719 661.0
73.9211 670.0
73.9704 620.0
74.0196 671.0
74.0689 641.0
74.1181 708.0
74.1673 647.0
74.2166 684.0
74.2658 621.0
74.3151 617.0
74.3643 671.0
74.4135 620.0
74.4628 609.0
74.512 680.0
74.5612 652.0
74.6105 714.0
74.6597 630.0
74.709 624.0
74.7582 583.0
74.8074 611.0
74.8567 653.0
74.9059 641.0
74.9552 710.0
75.0044 645.0
75.0536 602.0
75.1029 601.0
75.1521 676.0
75.2013 578.0
75.2506 623.0
75.2998 698.0
75.3491 636.0
75.3983 613.0
75.4475 651.0
75.4968 612.0
75.546 676.0
75.5953 647.0
75.6445 670.0
75.6937 627.0
75.743 665.0
75.7922 604.0
75.8415 626.0
75.8907 653.0
75.9399 578.0
75.9892 638.0
76.0384 632.0
76.0876 658.0
76.1369 626.0
76.1861 628.0
76.2354 631.0
76.2846 668.0
76.3338 652.0
76.3831 662.0
76.4323 669.0
76.4816 644.0
76.5308 659.0
76.58 642.0
76.6293 669.0
76.6785 674.0
76.7277 667.0
76.777 637.0
76.8262 657.0
76.8755 718.0
76.9247 641.0
76.9739 670.0
77.0232 631.0
77.0724 653.0
77.1217 654.0
77.1709 666.0
77.2201 666.0
77.2694 643.0
77.3186 678.0
77.3678 751.0
77.4171 735.0
77.4663 748.0
77.5156 735.0
77.5648 759.0
77.614 724.0
77.6633 851.0
77.7125 758.0
77.7618 805.0
77.811 825.0
77.8602 885.0
77.9095 869.0
77.9587 812.0
78.0079 841.0
78.0572 894.0
78.1064 854.0
78.1557 789.0
78.2049 781.0
78.2541 743.0
78.3034 784.0
78.3526 745.0
78.4019 725.0
78.4511 745.0
78.5003 701.0
78.5496 793.0
78.5988 703.0
78.648 731.0
78.6973 726.0
78.7465 745.0
78.7958 745.0
78.845 736.0
78.8942 749.0
78.9435 754.0
78.9927 712.0
79.042 825.0
79.0912 785.0
79.1404 755.0
79.1897 754.0
79.2389 704.0
79.2882 762.0
79.3374 701.0
79.3866 763.0
79.4359 731.0
79.4851 731.0
79.5343 762.0
79.5836 769.0
79.6328 792.0
79.6821 798.0
79.7313 834.0
79.7805 836.0
79.8298 783.0
79.879 787.0
79.9283 793.0
79.9775 701.0
79.9972 799.0